Name1      Name2           Long(deg)              Lati(deg)
038       000                     84.033            27.238
039       000                     84.033            27.171
033       001                     84.100            27.571
034       001                     84.100            27.504
035       001                     84.100            27.438
036       001                     84.100            27.371
037       001                     84.100            27.304
038       001                     84.100            27.238
039       001                     84.100            27.171
027       002                     84.167            27.971
028       002                     84.167            27.904
029       002                     84.167            27.838
030       002                     84.167            27.771
031       002                     84.167            27.704
032       002                     84.167            27.638
033       002                     84.167            27.571
034       002                     84.167            27.504
035       002                     84.167            27.438
036       002                     84.167            27.371
037       002                     84.167            27.304
038       002                     84.167            27.238
039       002                     84.167            27.171
021       003                     84.233            28.371
022       003                     84.233            28.304
023       003                     84.233            28.238
024       003                     84.233            28.171
025       003                     84.233            28.104
026       003                     84.233            28.038
027       003                     84.233            27.971
028       003                     84.233            27.904
029       003                     84.233            27.838
030       003                     84.233            27.771
031       003                     84.233            27.704
032       003                     84.233            27.638
033       003                     84.233            27.571
034       003                     84.233            27.504
035       003                     84.233            27.438
036       003                     84.233            27.371
037       003                     84.233            27.304
038       003                     84.233            27.238
039       003                     84.233            27.171
018       004                     84.300            28.571
019       004                     84.300            28.504
020       004                     84.300            28.438
021       004                     84.300            28.371
022       004                     84.300            28.304
023       004                     84.300            28.238
024       004                     84.300            28.171
025       004                     84.300            28.104
026       004                     84.300            28.038
027       004                     84.300            27.971
028       004                     84.300            27.904
029       004                     84.300            27.838
030       004                     84.300            27.771
031       004                     84.300            27.704
032       004                     84.300            27.638
033       004                     84.300            27.571
034       004                     84.300            27.504
035       004                     84.300            27.438
036       004                     84.300            27.371
037       004                     84.300            27.304
038       004                     84.300            27.238
039       004                     84.300            27.171
040       004                     84.300            27.104
008       005                     84.367            29.238
009       005                     84.367            29.171
010       005                     84.367            29.104
011       005                     84.367            29.038
012       005                     84.367            28.971
017       005                     84.367            28.638
018       005                     84.367            28.571
019       005                     84.367            28.504
020       005                     84.367            28.438
021       005                     84.367            28.371
022       005                     84.367            28.304
023       005                     84.367            28.238
024       005                     84.367            28.171
025       005                     84.367            28.104
026       005                     84.367            28.038
027       005                     84.367            27.971
028       005                     84.367            27.904
029       005                     84.367            27.838
030       005                     84.367            27.771
031       005                     84.367            27.704
032       005                     84.367            27.638
033       005                     84.367            27.571
034       005                     84.367            27.504
035       005                     84.367            27.438
036       005                     84.367            27.371
037       005                     84.367            27.304
038       005                     84.367            27.238
039       005                     84.367            27.171
040       005                     84.367            27.104
003       006                     84.433            29.571
004       006                     84.433            29.504
005       006                     84.433            29.438
006       006                     84.433            29.371
007       006                     84.433            29.304
008       006                     84.433            29.238
009       006                     84.433            29.171
010       006                     84.433            29.104
011       006                     84.433            29.038
012       006                     84.433            28.971
013       006                     84.433            28.904
017       006                     84.433            28.638
018       006                     84.433            28.571
019       006                     84.433            28.504
020       006                     84.433            28.438
021       006                     84.433            28.371
022       006                     84.433            28.304
023       006                     84.433            28.238
024       006                     84.433            28.171
025       006                     84.433            28.104
026       006                     84.433            28.038
027       006                     84.433            27.971
028       006                     84.433            27.904
029       006                     84.433            27.838
030       006                     84.433            27.771
031       006                     84.433            27.704
032       006                     84.433            27.638
033       006                     84.433            27.571
034       006                     84.433            27.504
035       006                     84.433            27.438
036       006                     84.433            27.371
037       006                     84.433            27.304
038       006                     84.433            27.238
039       006                     84.433            27.171
040       006                     84.433            27.104
001       007                     84.500            29.704
002       007                     84.500            29.638
003       007                     84.500            29.571
004       007                     84.500            29.504
005       007                     84.500            29.438
006       007                     84.500            29.371
007       007                     84.500            29.304
008       007                     84.500            29.238
009       007                     84.500            29.171
010       007                     84.500            29.104
011       007                     84.500            29.038
012       007                     84.500            28.971
013       007                     84.500            28.904
020       007                     84.500            28.438
021       007                     84.500            28.371
022       007                     84.500            28.304
023       007                     84.500            28.238
024       007                     84.500            28.171
025       007                     84.500            28.104
026       007                     84.500            28.038
027       007                     84.500            27.971
028       007                     84.500            27.904
029       007                     84.500            27.838
030       007                     84.500            27.771
031       007                     84.500            27.704
032       007                     84.500            27.638
033       007                     84.500            27.571
034       007                     84.500            27.504
035       007                     84.500            27.438
036       007                     84.500            27.371
037       007                     84.500            27.304
038       007                     84.500            27.238
039       007                     84.500            27.171
040       007                     84.500            27.104
001       008                     84.567            29.704
002       008                     84.567            29.638
003       008                     84.567            29.571
004       008                     84.567            29.504
005       008                     84.567            29.438
006       008                     84.567            29.371
007       008                     84.567            29.304
008       008                     84.567            29.238
009       008                     84.567            29.171
010       008                     84.567            29.104
011       008                     84.567            29.038
012       008                     84.567            28.971
013       008                     84.567            28.904
022       008                     84.567            28.304
023       008                     84.567            28.238
024       008                     84.567            28.171
025       008                     84.567            28.104
026       008                     84.567            28.038
027       008                     84.567            27.971
028       008                     84.567            27.904
029       008                     84.567            27.838
030       008                     84.567            27.771
031       008                     84.567            27.704
032       008                     84.567            27.638
033       008                     84.567            27.571
034       008                     84.567            27.504
035       008                     84.567            27.438
036       008                     84.567            27.371
037       008                     84.567            27.304
038       008                     84.567            27.238
039       008                     84.567            27.171
040       008                     84.567            27.104
001       009                     84.633            29.704
002       009                     84.633            29.638
003       009                     84.633            29.571
004       009                     84.633            29.504
005       009                     84.633            29.438
006       009                     84.633            29.371
007       009                     84.633            29.304
008       009                     84.633            29.238
009       009                     84.633            29.171
010       009                     84.633            29.104
011       009                     84.633            29.038
012       009                     84.633            28.971
013       009                     84.633            28.904
015       009                     84.633            28.771
022       009                     84.633            28.304
023       009                     84.633            28.238
024       009                     84.633            28.171
025       009                     84.633            28.104
026       009                     84.633            28.038
027       009                     84.633            27.971
028       009                     84.633            27.904
029       009                     84.633            27.838
030       009                     84.633            27.771
031       009                     84.633            27.704
032       009                     84.633            27.638
033       009                     84.633            27.571
034       009                     84.633            27.504
035       009                     84.633            27.438
036       009                     84.633            27.371
037       009                     84.633            27.304
038       009                     84.633            27.238
039       009                     84.633            27.171
040       009                     84.633            27.104
001       010                     84.700            29.704
002       010                     84.700            29.638
003       010                     84.700            29.571
004       010                     84.700            29.504
005       010                     84.700            29.438
006       010                     84.700            29.371
007       010                     84.700            29.304
008       010                     84.700            29.238
009       010                     84.700            29.171
010       010                     84.700            29.104
011       010                     84.700            29.038
012       010                     84.700            28.971
013       010                     84.700            28.904
015       010                     84.700            28.771
018       010                     84.700            28.571
022       010                     84.700            28.304
023       010                     84.700            28.238
024       010                     84.700            28.171
025       010                     84.700            28.104
026       010                     84.700            28.038
027       010                     84.700            27.971
028       010                     84.700            27.904
029       010                     84.700            27.838
030       010                     84.700            27.771
031       010                     84.700            27.704
032       010                     84.700            27.638
033       010                     84.700            27.571
034       010                     84.700            27.504
035       010                     84.700            27.438
036       010                     84.700            27.371
037       010                     84.700            27.304
038       010                     84.700            27.238
039       010                     84.700            27.171
040       010                     84.700            27.104
001       011                     84.767            29.704
002       011                     84.767            29.638
003       011                     84.767            29.571
004       011                     84.767            29.504
005       011                     84.767            29.438
006       011                     84.767            29.371
007       011                     84.767            29.304
008       011                     84.767            29.238
009       011                     84.767            29.171
010       011                     84.767            29.104
011       011                     84.767            29.038
012       011                     84.767            28.971
013       011                     84.767            28.904
014       011                     84.767            28.838
015       011                     84.767            28.771
016       011                     84.767            28.704
018       011                     84.767            28.571
019       011                     84.767            28.504
022       011                     84.767            28.304
023       011                     84.767            28.238
024       011                     84.767            28.171
025       011                     84.767            28.104
026       011                     84.767            28.038
027       011                     84.767            27.971
028       011                     84.767            27.904
029       011                     84.767            27.838
030       011                     84.767            27.771
031       011                     84.767            27.704
032       011                     84.767            27.638
033       011                     84.767            27.571
034       011                     84.767            27.504
035       011                     84.767            27.438
036       011                     84.767            27.371
037       011                     84.767            27.304
038       011                     84.767            27.238
039       011                     84.767            27.171
040       011                     84.767            27.104
041       011                     84.767            27.038
001       012                     84.833            29.704
002       012                     84.833            29.638
003       012                     84.833            29.571
004       012                     84.833            29.504
005       012                     84.833            29.438
006       012                     84.833            29.371
007       012                     84.833            29.304
008       012                     84.833            29.238
009       012                     84.833            29.171
010       012                     84.833            29.104
011       012                     84.833            29.038
012       012                     84.833            28.971
013       012                     84.833            28.904
016       012                     84.833            28.704
018       012                     84.833            28.571
019       012                     84.833            28.504
020       012                     84.833            28.438
021       012                     84.833            28.371
022       012                     84.833            28.304
025       012                     84.833            28.104
026       012                     84.833            28.038
027       012                     84.833            27.971
028       012                     84.833            27.904
029       012                     84.833            27.838
030       012                     84.833            27.771
031       012                     84.833            27.704
032       012                     84.833            27.638
033       012                     84.833            27.571
034       012                     84.833            27.504
035       012                     84.833            27.438
036       012                     84.833            27.371
037       012                     84.833            27.304
038       012                     84.833            27.238
039       012                     84.833            27.171
040       012                     84.833            27.104
041       012                     84.833            27.038
001       013                     84.900            29.704
002       013                     84.900            29.638
003       013                     84.900            29.571
004       013                     84.900            29.504
005       013                     84.900            29.438
006       013                     84.900            29.371
007       013                     84.900            29.304
008       013                     84.900            29.238
009       013                     84.900            29.171
010       013                     84.900            29.104
011       013                     84.900            29.038
012       013                     84.900            28.971
013       013                     84.900            28.904
015       013                     84.900            28.771
016       013                     84.900            28.704
019       013                     84.900            28.504
020       013                     84.900            28.438
021       013                     84.900            28.371
022       013                     84.900            28.304
023       013                     84.900            28.238
024       013                     84.900            28.171
026       013                     84.900            28.038
027       013                     84.900            27.971
028       013                     84.900            27.904
029       013                     84.900            27.838
030       013                     84.900            27.771
031       013                     84.900            27.704
032       013                     84.900            27.638
033       013                     84.900            27.571
034       013                     84.900            27.504
035       013                     84.900            27.438
036       013                     84.900            27.371
037       013                     84.900            27.304
038       013                     84.900            27.238
039       013                     84.900            27.171
040       013                     84.900            27.104
041       013                     84.900            27.038
002       014                     84.967            29.638
003       014                     84.967            29.571
004       014                     84.967            29.504
005       014                     84.967            29.438
006       014                     84.967            29.371
007       014                     84.967            29.304
008       014                     84.967            29.238
009       014                     84.967            29.171
010       014                     84.967            29.104
011       014                     84.967            29.038
012       014                     84.967            28.971
019       014                     84.967            28.504
022       014                     84.967            28.304
023       014                     84.967            28.238
024       014                     84.967            28.171
027       014                     84.967            27.971
028       014                     84.967            27.904
029       014                     84.967            27.838
030       014                     84.967            27.771
031       014                     84.967            27.704
032       014                     84.967            27.638
033       014                     84.967            27.571
034       014                     84.967            27.504
035       014                     84.967            27.438
036       014                     84.967            27.371
037       014                     84.967            27.304
038       014                     84.967            27.238
039       014                     84.967            27.171
040       014                     84.967            27.104
041       014                     84.967            27.038
002       015                     85.033            29.638
003       015                     85.033            29.571
004       015                     85.033            29.504
005       015                     85.033            29.438
006       015                     85.033            29.371
007       015                     85.033            29.304
008       015                     85.033            29.238
009       015                     85.033            29.171
010       015                     85.033            29.104
011       015                     85.033            29.038
012       015                     85.033            28.971
013       015                     85.033            28.904
023       015                     85.033            28.238
026       015                     85.033            28.038
027       015                     85.033            27.971
028       015                     85.033            27.904
029       015                     85.033            27.838
030       015                     85.033            27.771
031       015                     85.033            27.704
032       015                     85.033            27.638
033       015                     85.033            27.571
034       015                     85.033            27.504
035       015                     85.033            27.438
036       015                     85.033            27.371
037       015                     85.033            27.304
038       015                     85.033            27.238
039       015                     85.033            27.171
040       015                     85.033            27.104
041       015                     85.033            27.038
002       016                     85.100            29.638
003       016                     85.100            29.571
004       016                     85.100            29.504
005       016                     85.100            29.438
006       016                     85.100            29.371
007       016                     85.100            29.304
008       016                     85.100            29.238
009       016                     85.100            29.171
010       016                     85.100            29.104
011       016                     85.100            29.038
012       016                     85.100            28.971
013       016                     85.100            28.904
014       016                     85.100            28.838
017       016                     85.100            28.638
023       016                     85.100            28.238
025       016                     85.100            28.104
027       016                     85.100            27.971
028       016                     85.100            27.904
029       016                     85.100            27.838
030       016                     85.100            27.771
031       016                     85.100            27.704
032       016                     85.100            27.638
033       016                     85.100            27.571
034       016                     85.100            27.504
035       016                     85.100            27.438
036       016                     85.100            27.371
037       016                     85.100            27.304
038       016                     85.100            27.238
039       016                     85.100            27.171
040       016                     85.100            27.104
041       016                     85.100            27.038
002       017                     85.167            29.638
003       017                     85.167            29.571
004       017                     85.167            29.504
005       017                     85.167            29.438
006       017                     85.167            29.371
007       017                     85.167            29.304
008       017                     85.167            29.238
009       017                     85.167            29.171
010       017                     85.167            29.104
011       017                     85.167            29.038
012       017                     85.167            28.971
013       017                     85.167            28.904
014       017                     85.167            28.838
015       017                     85.167            28.771
019       017                     85.167            28.504
024       017                     85.167            28.171
027       017                     85.167            27.971
028       017                     85.167            27.904
029       017                     85.167            27.838
030       017                     85.167            27.771
031       017                     85.167            27.704
032       017                     85.167            27.638
033       017                     85.167            27.571
034       017                     85.167            27.504
035       017                     85.167            27.438
036       017                     85.167            27.371
037       017                     85.167            27.304
038       017                     85.167            27.238
039       017                     85.167            27.171
040       017                     85.167            27.104
041       017                     85.167            27.038
042       017                     85.167            26.971
002       018                     85.233            29.638
003       018                     85.233            29.571
004       018                     85.233            29.504
005       018                     85.233            29.438
006       018                     85.233            29.371
007       018                     85.233            29.304
008       018                     85.233            29.238
009       018                     85.233            29.171
010       018                     85.233            29.104
011       018                     85.233            29.038
012       018                     85.233            28.971
013       018                     85.233            28.904
014       018                     85.233            28.838
015       018                     85.233            28.771
016       018                     85.233            28.704
017       018                     85.233            28.638
020       018                     85.233            28.438
023       018                     85.233            28.238
024       018                     85.233            28.171
027       018                     85.233            27.971
028       018                     85.233            27.904
029       018                     85.233            27.838
030       018                     85.233            27.771
031       018                     85.233            27.704
032       018                     85.233            27.638
033       018                     85.233            27.571
034       018                     85.233            27.504
035       018                     85.233            27.438
036       018                     85.233            27.371
037       018                     85.233            27.304
038       018                     85.233            27.238
039       018                     85.233            27.171
040       018                     85.233            27.104
041       018                     85.233            27.038
042       018                     85.233            26.971
002       019                     85.300            29.638
003       019                     85.300            29.571
004       019                     85.300            29.504
005       019                     85.300            29.438
006       019                     85.300            29.371
007       019                     85.300            29.304
008       019                     85.300            29.238
009       019                     85.300            29.171
010       019                     85.300            29.104
011       019                     85.300            29.038
012       019                     85.300            28.971
013       019                     85.300            28.904
014       019                     85.300            28.838
015       019                     85.300            28.771
016       019                     85.300            28.704
020       019                     85.300            28.438
021       019                     85.300            28.371
022       019                     85.300            28.304
023       019                     85.300            28.238
025       019                     85.300            28.104
026       019                     85.300            28.038
027       019                     85.300            27.971
028       019                     85.300            27.904
029       019                     85.300            27.838
030       019                     85.300            27.771
031       019                     85.300            27.704
032       019                     85.300            27.638
033       019                     85.300            27.571
034       019                     85.300            27.504
035       019                     85.300            27.438
036       019                     85.300            27.371
037       019                     85.300            27.304
038       019                     85.300            27.238
039       019                     85.300            27.171
040       019                     85.300            27.104
041       019                     85.300            27.038
042       019                     85.300            26.971
002       020                     85.367            29.638
003       020                     85.367            29.571
004       020                     85.367            29.504
005       020                     85.367            29.438
006       020                     85.367            29.371
007       020                     85.367            29.304
008       020                     85.367            29.238
009       020                     85.367            29.171
010       020                     85.367            29.104
011       020                     85.367            29.038
012       020                     85.367            28.971
014       020                     85.367            28.838
015       020                     85.367            28.771
020       020                     85.367            28.438
021       020                     85.367            28.371
022       020                     85.367            28.304
026       020                     85.367            28.038
027       020                     85.367            27.971
028       020                     85.367            27.904
029       020                     85.367            27.838
030       020                     85.367            27.771
031       020                     85.367            27.704
032       020                     85.367            27.638
033       020                     85.367            27.571
034       020                     85.367            27.504
035       020                     85.367            27.438
036       020                     85.367            27.371
037       020                     85.367            27.304
038       020                     85.367            27.238
039       020                     85.367            27.171
040       020                     85.367            27.104
041       020                     85.367            27.038
042       020                     85.367            26.971
002       021                     85.433            29.638
003       021                     85.433            29.571
004       021                     85.433            29.504
005       021                     85.433            29.438
006       021                     85.433            29.371
007       021                     85.433            29.304
008       021                     85.433            29.238
009       021                     85.433            29.171
010       021                     85.433            29.104
011       021                     85.433            29.038
012       021                     85.433            28.971
014       021                     85.433            28.838
015       021                     85.433            28.771
019       021                     85.433            28.504
020       021                     85.433            28.438
021       021                     85.433            28.371
028       021                     85.433            27.904
029       021                     85.433            27.838
030       021                     85.433            27.771
031       021                     85.433            27.704
032       021                     85.433            27.638
033       021                     85.433            27.571
034       021                     85.433            27.504
035       021                     85.433            27.438
036       021                     85.433            27.371
037       021                     85.433            27.304
038       021                     85.433            27.238
039       021                     85.433            27.171
040       021                     85.433            27.104
041       021                     85.433            27.038
042       021                     85.433            26.971
003       022                     85.500            29.571
004       022                     85.500            29.504
005       022                     85.500            29.438
006       022                     85.500            29.371
007       022                     85.500            29.304
008       022                     85.500            29.238
009       022                     85.500            29.171
010       022                     85.500            29.104
011       022                     85.500            29.038
012       022                     85.500            28.971
013       022                     85.500            28.904
027       022                     85.500            27.971
028       022                     85.500            27.904
029       022                     85.500            27.838
030       022                     85.500            27.771
031       022                     85.500            27.704
032       022                     85.500            27.638
033       022                     85.500            27.571
034       022                     85.500            27.504
035       022                     85.500            27.438
036       022                     85.500            27.371
037       022                     85.500            27.304
038       022                     85.500            27.238
039       022                     85.500            27.171
040       022                     85.500            27.104
041       022                     85.500            27.038
042       022                     85.500            26.971
003       023                     85.567            29.571
004       023                     85.567            29.504
005       023                     85.567            29.438
006       023                     85.567            29.371
007       023                     85.567            29.304
008       023                     85.567            29.238
009       023                     85.567            29.171
010       023                     85.567            29.104
011       023                     85.567            29.038
012       023                     85.567            28.971
017       023                     85.567            28.638
030       023                     85.567            27.771
031       023                     85.567            27.704
032       023                     85.567            27.638
033       023                     85.567            27.571
034       023                     85.567            27.504
035       023                     85.567            27.438
036       023                     85.567            27.371
037       023                     85.567            27.304
038       023                     85.567            27.238
039       023                     85.567            27.171
040       023                     85.567            27.104
041       023                     85.567            27.038
042       023                     85.567            26.971
043       023                     85.567            26.904
003       024                     85.633            29.571
004       024                     85.633            29.504
005       024                     85.633            29.438
006       024                     85.633            29.371
007       024                     85.633            29.304
008       024                     85.633            29.238
009       024                     85.633            29.171
010       024                     85.633            29.104
011       024                     85.633            29.038
012       024                     85.633            28.971
013       024                     85.633            28.904
017       024                     85.633            28.638
018       024                     85.633            28.571
029       024                     85.633            27.838
030       024                     85.633            27.771
031       024                     85.633            27.704
032       024                     85.633            27.638
033       024                     85.633            27.571
034       024                     85.633            27.504
035       024                     85.633            27.438
036       024                     85.633            27.371
037       024                     85.633            27.304
038       024                     85.633            27.238
039       024                     85.633            27.171
040       024                     85.633            27.104
041       024                     85.633            27.038
042       024                     85.633            26.971
043       024                     85.633            26.904
003       025                     85.700            29.571
004       025                     85.700            29.504
005       025                     85.700            29.438
006       025                     85.700            29.371
007       025                     85.700            29.304
008       025                     85.700            29.238
009       025                     85.700            29.171
010       025                     85.700            29.104
011       025                     85.700            29.038
012       025                     85.700            28.971
013       025                     85.700            28.904
014       025                     85.700            28.838
015       025                     85.700            28.771
016       025                     85.700            28.704
017       025                     85.700            28.638
018       025                     85.700            28.571
019       025                     85.700            28.504
029       025                     85.700            27.838
030       025                     85.700            27.771
031       025                     85.700            27.704
032       025                     85.700            27.638
033       025                     85.700            27.571
034       025                     85.700            27.504
035       025                     85.700            27.438
036       025                     85.700            27.371
037       025                     85.700            27.304
038       025                     85.700            27.238
039       025                     85.700            27.171
040       025                     85.700            27.104
041       025                     85.700            27.038
042       025                     85.700            26.971
043       025                     85.700            26.904
003       026                     85.767            29.571
004       026                     85.767            29.504
005       026                     85.767            29.438
006       026                     85.767            29.371
007       026                     85.767            29.304
008       026                     85.767            29.238
009       026                     85.767            29.171
010       026                     85.767            29.104
011       026                     85.767            29.038
012       026                     85.767            28.971
013       026                     85.767            28.904
014       026                     85.767            28.838
015       026                     85.767            28.771
016       026                     85.767            28.704
017       026                     85.767            28.638
018       026                     85.767            28.571
019       026                     85.767            28.504
029       026                     85.767            27.838
030       026                     85.767            27.771
031       026                     85.767            27.704
032       026                     85.767            27.638
033       026                     85.767            27.571
034       026                     85.767            27.504
035       026                     85.767            27.438
036       026                     85.767            27.371
037       026                     85.767            27.304
038       026                     85.767            27.238
039       026                     85.767            27.171
040       026                     85.767            27.104
041       026                     85.767            27.038
042       026                     85.767            26.971
043       026                     85.767            26.904
003       027                     85.833            29.571
004       027                     85.833            29.504
005       027                     85.833            29.438
006       027                     85.833            29.371
007       027                     85.833            29.304
008       027                     85.833            29.238
009       027                     85.833            29.171
010       027                     85.833            29.104
011       027                     85.833            29.038
012       027                     85.833            28.971
013       027                     85.833            28.904
014       027                     85.833            28.838
015       027                     85.833            28.771
016       027                     85.833            28.704
017       027                     85.833            28.638
018       027                     85.833            28.571
019       027                     85.833            28.504
020       027                     85.833            28.438
021       027                     85.833            28.371
027       027                     85.833            27.971
028       027                     85.833            27.904
029       027                     85.833            27.838
030       027                     85.833            27.771
031       027                     85.833            27.704
032       027                     85.833            27.638
033       027                     85.833            27.571
034       027                     85.833            27.504
035       027                     85.833            27.438
036       027                     85.833            27.371
037       027                     85.833            27.304
038       027                     85.833            27.238
039       027                     85.833            27.171
040       027                     85.833            27.104
041       027                     85.833            27.038
042       027                     85.833            26.971
043       027                     85.833            26.904
003       028                     85.900            29.571
004       028                     85.900            29.504
005       028                     85.900            29.438
006       028                     85.900            29.371
007       028                     85.900            29.304
008       028                     85.900            29.238
009       028                     85.900            29.171
010       028                     85.900            29.104
011       028                     85.900            29.038
012       028                     85.900            28.971
013       028                     85.900            28.904
014       028                     85.900            28.838
015       028                     85.900            28.771
016       028                     85.900            28.704
017       028                     85.900            28.638
018       028                     85.900            28.571
019       028                     85.900            28.504
020       028                     85.900            28.438
021       028                     85.900            28.371
026       028                     85.900            28.038
029       028                     85.900            27.838
030       028                     85.900            27.771
031       028                     85.900            27.704
032       028                     85.900            27.638
033       028                     85.900            27.571
034       028                     85.900            27.504
035       028                     85.900            27.438
036       028                     85.900            27.371
037       028                     85.900            27.304
038       028                     85.900            27.238
039       028                     85.900            27.171
040       028                     85.900            27.104
041       028                     85.900            27.038
042       028                     85.900            26.971
043       028                     85.900            26.904
003       029                     85.967            29.571
004       029                     85.967            29.504
005       029                     85.967            29.438
006       029                     85.967            29.371
007       029                     85.967            29.304
008       029                     85.967            29.238
009       029                     85.967            29.171
010       029                     85.967            29.104
011       029                     85.967            29.038
012       029                     85.967            28.971
013       029                     85.967            28.904
014       029                     85.967            28.838
015       029                     85.967            28.771
016       029                     85.967            28.704
017       029                     85.967            28.638
018       029                     85.967            28.571
019       029                     85.967            28.504
020       029                     85.967            28.438
021       029                     85.967            28.371
022       029                     85.967            28.304
023       029                     85.967            28.238
024       029                     85.967            28.171
025       029                     85.967            28.104
026       029                     85.967            28.038
027       029                     85.967            27.971
028       029                     85.967            27.904
029       029                     85.967            27.838
030       029                     85.967            27.771
031       029                     85.967            27.704
032       029                     85.967            27.638
033       029                     85.967            27.571
034       029                     85.967            27.504
035       029                     85.967            27.438
036       029                     85.967            27.371
037       029                     85.967            27.304
038       029                     85.967            27.238
039       029                     85.967            27.171
040       029                     85.967            27.104
041       029                     85.967            27.038
042       029                     85.967            26.971
043       029                     85.967            26.904
004       030                     86.033            29.504
005       030                     86.033            29.438
006       030                     86.033            29.371
007       030                     86.033            29.304
008       030                     86.033            29.238
009       030                     86.033            29.171
010       030                     86.033            29.104
011       030                     86.033            29.038
012       030                     86.033            28.971
013       030                     86.033            28.904
014       030                     86.033            28.838
015       030                     86.033            28.771
016       030                     86.033            28.704
017       030                     86.033            28.638
018       030                     86.033            28.571
019       030                     86.033            28.504
021       030                     86.033            28.371
022       030                     86.033            28.304
027       030                     86.033            27.971
028       030                     86.033            27.904
029       030                     86.033            27.838
030       030                     86.033            27.771
031       030                     86.033            27.704
032       030                     86.033            27.638
033       030                     86.033            27.571
034       030                     86.033            27.504
035       030                     86.033            27.438
036       030                     86.033            27.371
037       030                     86.033            27.304
038       030                     86.033            27.238
039       030                     86.033            27.171
040       030                     86.033            27.104
041       030                     86.033            27.038
042       030                     86.033            26.971
043       030                     86.033            26.904
044       030                     86.033            26.838
004       031                     86.100            29.504
005       031                     86.100            29.438
006       031                     86.100            29.371
007       031                     86.100            29.304
008       031                     86.100            29.238
009       031                     86.100            29.171
010       031                     86.100            29.104
011       031                     86.100            29.038
012       031                     86.100            28.971
013       031                     86.100            28.904
014       031                     86.100            28.838
015       031                     86.100            28.771
016       031                     86.100            28.704
017       031                     86.100            28.638
018       031                     86.100            28.571
019       031                     86.100            28.504
020       031                     86.100            28.438
021       031                     86.100            28.371
028       031                     86.100            27.904
029       031                     86.100            27.838
030       031                     86.100            27.771
031       031                     86.100            27.704
032       031                     86.100            27.638
033       031                     86.100            27.571
034       031                     86.100            27.504
035       031                     86.100            27.438
036       031                     86.100            27.371
037       031                     86.100            27.304
038       031                     86.100            27.238
039       031                     86.100            27.171
040       031                     86.100            27.104
041       031                     86.100            27.038
042       031                     86.100            26.971
043       031                     86.100            26.904
044       031                     86.100            26.838
004       032                     86.167            29.504
005       032                     86.167            29.438
006       032                     86.167            29.371
007       032                     86.167            29.304
008       032                     86.167            29.238
009       032                     86.167            29.171
010       032                     86.167            29.104
011       032                     86.167            29.038
012       032                     86.167            28.971
013       032                     86.167            28.904
014       032                     86.167            28.838
015       032                     86.167            28.771
016       032                     86.167            28.704
017       032                     86.167            28.638
018       032                     86.167            28.571
019       032                     86.167            28.504
020       032                     86.167            28.438
021       032                     86.167            28.371
026       032                     86.167            28.038
027       032                     86.167            27.971
028       032                     86.167            27.904
029       032                     86.167            27.838
030       032                     86.167            27.771
031       032                     86.167            27.704
032       032                     86.167            27.638
033       032                     86.167            27.571
034       032                     86.167            27.504
035       032                     86.167            27.438
036       032                     86.167            27.371
037       032                     86.167            27.304
038       032                     86.167            27.238
039       032                     86.167            27.171
040       032                     86.167            27.104
041       032                     86.167            27.038
042       032                     86.167            26.971
043       032                     86.167            26.904
044       032                     86.167            26.838
004       033                     86.233            29.504
005       033                     86.233            29.438
006       033                     86.233            29.371
007       033                     86.233            29.304
008       033                     86.233            29.238
009       033                     86.233            29.171
010       033                     86.233            29.104
011       033                     86.233            29.038
012       033                     86.233            28.971
013       033                     86.233            28.904
014       033                     86.233            28.838
015       033                     86.233            28.771
016       033                     86.233            28.704
017       033                     86.233            28.638
018       033                     86.233            28.571
019       033                     86.233            28.504
020       033                     86.233            28.438
026       033                     86.233            28.038
027       033                     86.233            27.971
028       033                     86.233            27.904
029       033                     86.233            27.838
030       033                     86.233            27.771
031       033                     86.233            27.704
032       033                     86.233            27.638
033       033                     86.233            27.571
034       033                     86.233            27.504
035       033                     86.233            27.438
036       033                     86.233            27.371
037       033                     86.233            27.304
038       033                     86.233            27.238
039       033                     86.233            27.171
040       033                     86.233            27.104
041       033                     86.233            27.038
042       033                     86.233            26.971
043       033                     86.233            26.904
044       033                     86.233            26.838
004       034                     86.300            29.504
005       034                     86.300            29.438
006       034                     86.300            29.371
007       034                     86.300            29.304
008       034                     86.300            29.238
009       034                     86.300            29.171
010       034                     86.300            29.104
011       034                     86.300            29.038
012       034                     86.300            28.971
013       034                     86.300            28.904
014       034                     86.300            28.838
015       034                     86.300            28.771
016       034                     86.300            28.704
017       034                     86.300            28.638
018       034                     86.300            28.571
019       034                     86.300            28.504
020       034                     86.300            28.438
025       034                     86.300            28.104
026       034                     86.300            28.038
028       034                     86.300            27.904
029       034                     86.300            27.838
030       034                     86.300            27.771
031       034                     86.300            27.704
032       034                     86.300            27.638
033       034                     86.300            27.571
034       034                     86.300            27.504
035       034                     86.300            27.438
036       034                     86.300            27.371
037       034                     86.300            27.304
038       034                     86.300            27.238
039       034                     86.300            27.171
040       034                     86.300            27.104
041       034                     86.300            27.038
042       034                     86.300            26.971
043       034                     86.300            26.904
044       034                     86.300            26.838
004       035                     86.367            29.504
005       035                     86.367            29.438
006       035                     86.367            29.371
007       035                     86.367            29.304
008       035                     86.367            29.238
009       035                     86.367            29.171
010       035                     86.367            29.104
011       035                     86.367            29.038
012       035                     86.367            28.971
013       035                     86.367            28.904
015       035                     86.367            28.771
016       035                     86.367            28.704
017       035                     86.367            28.638
018       035                     86.367            28.571
019       035                     86.367            28.504
020       035                     86.367            28.438
025       035                     86.367            28.104
031       035                     86.367            27.704
032       035                     86.367            27.638
033       035                     86.367            27.571
034       035                     86.367            27.504
035       035                     86.367            27.438
036       035                     86.367            27.371
037       035                     86.367            27.304
038       035                     86.367            27.238
039       035                     86.367            27.171
040       035                     86.367            27.104
041       035                     86.367            27.038
042       035                     86.367            26.971
043       035                     86.367            26.904
044       035                     86.367            26.838
005       036                     86.433            29.438
006       036                     86.433            29.371
007       036                     86.433            29.304
008       036                     86.433            29.238
009       036                     86.433            29.171
010       036                     86.433            29.104
011       036                     86.433            29.038
012       036                     86.433            28.971
013       036                     86.433            28.904
014       036                     86.433            28.838
015       036                     86.433            28.771
016       036                     86.433            28.704
017       036                     86.433            28.638
018       036                     86.433            28.571
019       036                     86.433            28.504
020       036                     86.433            28.438
021       036                     86.433            28.371
030       036                     86.433            27.771
031       036                     86.433            27.704
032       036                     86.433            27.638
033       036                     86.433            27.571
034       036                     86.433            27.504
035       036                     86.433            27.438
036       036                     86.433            27.371
037       036                     86.433            27.304
038       036                     86.433            27.238
039       036                     86.433            27.171
040       036                     86.433            27.104
041       036                     86.433            27.038
042       036                     86.433            26.971
043       036                     86.433            26.904
044       036                     86.433            26.838
045       036                     86.433            26.771
005       037                     86.500            29.438
006       037                     86.500            29.371
007       037                     86.500            29.304
008       037                     86.500            29.238
009       037                     86.500            29.171
010       037                     86.500            29.104
011       037                     86.500            29.038
012       037                     86.500            28.971
013       037                     86.500            28.904
014       037                     86.500            28.838
015       037                     86.500            28.771
016       037                     86.500            28.704
017       037                     86.500            28.638
018       037                     86.500            28.571
019       037                     86.500            28.504
020       037                     86.500            28.438
021       037                     86.500            28.371
022       037                     86.500            28.304
031       037                     86.500            27.704
032       037                     86.500            27.638
033       037                     86.500            27.571
034       037                     86.500            27.504
035       037                     86.500            27.438
036       037                     86.500            27.371
037       037                     86.500            27.304
038       037                     86.500            27.238
039       037                     86.500            27.171
040       037                     86.500            27.104
041       037                     86.500            27.038
042       037                     86.500            26.971
043       037                     86.500            26.904
044       037                     86.500            26.838
045       037                     86.500            26.771
005       038                     86.567            29.438
006       038                     86.567            29.371
007       038                     86.567            29.304
008       038                     86.567            29.238
009       038                     86.567            29.171
010       038                     86.567            29.104
011       038                     86.567            29.038
012       038                     86.567            28.971
013       038                     86.567            28.904
014       038                     86.567            28.838
015       038                     86.567            28.771
016       038                     86.567            28.704
017       038                     86.567            28.638
018       038                     86.567            28.571
019       038                     86.567            28.504
020       038                     86.567            28.438
021       038                     86.567            28.371
022       038                     86.567            28.304
023       038                     86.567            28.238
031       038                     86.567            27.704
032       038                     86.567            27.638
033       038                     86.567            27.571
034       038                     86.567            27.504
035       038                     86.567            27.438
036       038                     86.567            27.371
037       038                     86.567            27.304
038       038                     86.567            27.238
039       038                     86.567            27.171
040       038                     86.567            27.104
041       038                     86.567            27.038
042       038                     86.567            26.971
043       038                     86.567            26.904
044       038                     86.567            26.838
045       038                     86.567            26.771
005       039                     86.633            29.438
006       039                     86.633            29.371
007       039                     86.633            29.304
008       039                     86.633            29.238
009       039                     86.633            29.171
010       039                     86.633            29.104
011       039                     86.633            29.038
012       039                     86.633            28.971
013       039                     86.633            28.904
014       039                     86.633            28.838
015       039                     86.633            28.771
016       039                     86.633            28.704
017       039                     86.633            28.638
018       039                     86.633            28.571
019       039                     86.633            28.504
020       039                     86.633            28.438
021       039                     86.633            28.371
022       039                     86.633            28.304
023       039                     86.633            28.238
029       039                     86.633            27.838
030       039                     86.633            27.771
031       039                     86.633            27.704
032       039                     86.633            27.638
033       039                     86.633            27.571
034       039                     86.633            27.504
035       039                     86.633            27.438
036       039                     86.633            27.371
037       039                     86.633            27.304
038       039                     86.633            27.238
039       039                     86.633            27.171
040       039                     86.633            27.104
041       039                     86.633            27.038
042       039                     86.633            26.971
043       039                     86.633            26.904
044       039                     86.633            26.838
045       039                     86.633            26.771
005       040                     86.700            29.438
006       040                     86.700            29.371
007       040                     86.700            29.304
008       040                     86.700            29.238
009       040                     86.700            29.171
010       040                     86.700            29.104
011       040                     86.700            29.038
012       040                     86.700            28.971
013       040                     86.700            28.904
014       040                     86.700            28.838
015       040                     86.700            28.771
016       040                     86.700            28.704
017       040                     86.700            28.638
018       040                     86.700            28.571
019       040                     86.700            28.504
020       040                     86.700            28.438
021       040                     86.700            28.371
022       040                     86.700            28.304
023       040                     86.700            28.238
028       040                     86.700            27.904
029       040                     86.700            27.838
030       040                     86.700            27.771
031       040                     86.700            27.704
032       040                     86.700            27.638
033       040                     86.700            27.571
034       040                     86.700            27.504
035       040                     86.700            27.438
036       040                     86.700            27.371
037       040                     86.700            27.304
038       040                     86.700            27.238
039       040                     86.700            27.171
040       040                     86.700            27.104
041       040                     86.700            27.038
042       040                     86.700            26.971
043       040                     86.700            26.904
044       040                     86.700            26.838
045       040                     86.700            26.771
005       041                     86.767            29.438
006       041                     86.767            29.371
007       041                     86.767            29.304
008       041                     86.767            29.238
009       041                     86.767            29.171
010       041                     86.767            29.104
011       041                     86.767            29.038
012       041                     86.767            28.971
013       041                     86.767            28.904
014       041                     86.767            28.838
015       041                     86.767            28.771
016       041                     86.767            28.704
017       041                     86.767            28.638
018       041                     86.767            28.571
019       041                     86.767            28.504
020       041                     86.767            28.438
021       041                     86.767            28.371
022       041                     86.767            28.304
023       041                     86.767            28.238
024       041                     86.767            28.171
027       041                     86.767            27.971
028       041                     86.767            27.904
032       041                     86.767            27.638
033       041                     86.767            27.571
034       041                     86.767            27.504
035       041                     86.767            27.438
036       041                     86.767            27.371
037       041                     86.767            27.304
038       041                     86.767            27.238
039       041                     86.767            27.171
040       041                     86.767            27.104
041       041                     86.767            27.038
042       041                     86.767            26.971
043       041                     86.767            26.904
044       041                     86.767            26.838
045       041                     86.767            26.771
005       042                     86.833            29.438
006       042                     86.833            29.371
007       042                     86.833            29.304
008       042                     86.833            29.238
009       042                     86.833            29.171
010       042                     86.833            29.104
011       042                     86.833            29.038
012       042                     86.833            28.971
013       042                     86.833            28.904
014       042                     86.833            28.838
015       042                     86.833            28.771
016       042                     86.833            28.704
017       042                     86.833            28.638
018       042                     86.833            28.571
019       042                     86.833            28.504
020       042                     86.833            28.438
021       042                     86.833            28.371
022       042                     86.833            28.304
023       042                     86.833            28.238
024       042                     86.833            28.171
027       042                     86.833            27.971
032       042                     86.833            27.638
033       042                     86.833            27.571
034       042                     86.833            27.504
035       042                     86.833            27.438
036       042                     86.833            27.371
037       042                     86.833            27.304
038       042                     86.833            27.238
039       042                     86.833            27.171
040       042                     86.833            27.104
041       042                     86.833            27.038
042       042                     86.833            26.971
043       042                     86.833            26.904
044       042                     86.833            26.838
045       042                     86.833            26.771
046       042                     86.833            26.704
006       043                     86.900            29.371
007       043                     86.900            29.304
008       043                     86.900            29.238
009       043                     86.900            29.171
010       043                     86.900            29.104
011       043                     86.900            29.038
012       043                     86.900            28.971
013       043                     86.900            28.904
014       043                     86.900            28.838
015       043                     86.900            28.771
016       043                     86.900            28.704
017       043                     86.900            28.638
018       043                     86.900            28.571
019       043                     86.900            28.504
020       043                     86.900            28.438
021       043                     86.900            28.371
022       043                     86.900            28.304
032       043                     86.900            27.638
033       043                     86.900            27.571
034       043                     86.900            27.504
035       043                     86.900            27.438
036       043                     86.900            27.371
037       043                     86.900            27.304
038       043                     86.900            27.238
039       043                     86.900            27.171
040       043                     86.900            27.104
041       043                     86.900            27.038
042       043                     86.900            26.971
043       043                     86.900            26.904
044       043                     86.900            26.838
045       043                     86.900            26.771
046       043                     86.900            26.704
006       044                     86.967            29.371
007       044                     86.967            29.304
008       044                     86.967            29.238
009       044                     86.967            29.171
010       044                     86.967            29.104
011       044                     86.967            29.038
012       044                     86.967            28.971
013       044                     86.967            28.904
014       044                     86.967            28.838
015       044                     86.967            28.771
016       044                     86.967            28.704
017       044                     86.967            28.638
018       044                     86.967            28.571
019       044                     86.967            28.504
020       044                     86.967            28.438
021       044                     86.967            28.371
022       044                     86.967            28.304
023       044                     86.967            28.238
024       044                     86.967            28.171
032       044                     86.967            27.638
033       044                     86.967            27.571
034       044                     86.967            27.504
035       044                     86.967            27.438
036       044                     86.967            27.371
037       044                     86.967            27.304
038       044                     86.967            27.238
039       044                     86.967            27.171
040       044                     86.967            27.104
041       044                     86.967            27.038
042       044                     86.967            26.971
043       044                     86.967            26.904
044       044                     86.967            26.838
045       044                     86.967            26.771
046       044                     86.967            26.704
006       045                     87.033            29.371
007       045                     87.033            29.304
008       045                     87.033            29.238
009       045                     87.033            29.171
010       045                     87.033            29.104
011       045                     87.033            29.038
012       045                     87.033            28.971
013       045                     87.033            28.904
014       045                     87.033            28.838
015       045                     87.033            28.771
016       045                     87.033            28.704
017       045                     87.033            28.638
018       045                     87.033            28.571
019       045                     87.033            28.504
020       045                     87.033            28.438
021       045                     87.033            28.371
022       045                     87.033            28.304
023       045                     87.033            28.238
024       045                     87.033            28.171
025       045                     87.033            28.104
026       045                     87.033            28.038
031       045                     87.033            27.704
032       045                     87.033            27.638
033       045                     87.033            27.571
034       045                     87.033            27.504
035       045                     87.033            27.438
036       045                     87.033            27.371
037       045                     87.033            27.304
038       045                     87.033            27.238
039       045                     87.033            27.171
040       045                     87.033            27.104
041       045                     87.033            27.038
042       045                     87.033            26.971
043       045                     87.033            26.904
044       045                     87.033            26.838
045       045                     87.033            26.771
046       045                     87.033            26.704
006       046                     87.100            29.371
007       046                     87.100            29.304
008       046                     87.100            29.238
009       046                     87.100            29.171
010       046                     87.100            29.104
011       046                     87.100            29.038
012       046                     87.100            28.971
013       046                     87.100            28.904
014       046                     87.100            28.838
015       046                     87.100            28.771
016       046                     87.100            28.704
017       046                     87.100            28.638
018       046                     87.100            28.571
019       046                     87.100            28.504
020       046                     87.100            28.438
021       046                     87.100            28.371
022       046                     87.100            28.304
023       046                     87.100            28.238
031       046                     87.100            27.704
032       046                     87.100            27.638
033       046                     87.100            27.571
034       046                     87.100            27.504
035       046                     87.100            27.438
036       046                     87.100            27.371
037       046                     87.100            27.304
038       046                     87.100            27.238
039       046                     87.100            27.171
040       046                     87.100            27.104
041       046                     87.100            27.038
042       046                     87.100            26.971
043       046                     87.100            26.904
044       046                     87.100            26.838
045       046                     87.100            26.771
046       046                     87.100            26.704
006       047                     87.167            29.371
007       047                     87.167            29.304
008       047                     87.167            29.238
009       047                     87.167            29.171
010       047                     87.167            29.104
011       047                     87.167            29.038
012       047                     87.167            28.971
013       047                     87.167            28.904
014       047                     87.167            28.838
015       047                     87.167            28.771
016       047                     87.167            28.704
017       047                     87.167            28.638
018       047                     87.167            28.571
019       047                     87.167            28.504
020       047                     87.167            28.438
021       047                     87.167            28.371
022       047                     87.167            28.304
023       047                     87.167            28.238
024       047                     87.167            28.171
026       047                     87.167            28.038
031       047                     87.167            27.704
032       047                     87.167            27.638
033       047                     87.167            27.571
034       047                     87.167            27.504
035       047                     87.167            27.438
036       047                     87.167            27.371
037       047                     87.167            27.304
038       047                     87.167            27.238
039       047                     87.167            27.171
040       047                     87.167            27.104
041       047                     87.167            27.038
042       047                     87.167            26.971
043       047                     87.167            26.904
044       047                     87.167            26.838
045       047                     87.167            26.771
046       047                     87.167            26.704
047       047                     87.167            26.638
006       048                     87.233            29.371
007       048                     87.233            29.304
008       048                     87.233            29.238
009       048                     87.233            29.171
010       048                     87.233            29.104
011       048                     87.233            29.038
012       048                     87.233            28.971
013       048                     87.233            28.904
014       048                     87.233            28.838
015       048                     87.233            28.771
016       048                     87.233            28.704
017       048                     87.233            28.638
018       048                     87.233            28.571
019       048                     87.233            28.504
020       048                     87.233            28.438
021       048                     87.233            28.371
022       048                     87.233            28.304
023       048                     87.233            28.238
025       048                     87.233            28.104
027       048                     87.233            27.971
030       048                     87.233            27.771
031       048                     87.233            27.704
032       048                     87.233            27.638
033       048                     87.233            27.571
034       048                     87.233            27.504
035       048                     87.233            27.438
036       048                     87.233            27.371
037       048                     87.233            27.304
038       048                     87.233            27.238
039       048                     87.233            27.171
040       048                     87.233            27.104
041       048                     87.233            27.038
042       048                     87.233            26.971
043       048                     87.233            26.904
044       048                     87.233            26.838
045       048                     87.233            26.771
046       048                     87.233            26.704
047       048                     87.233            26.638
006       049                     87.300            29.371
007       049                     87.300            29.304
008       049                     87.300            29.238
009       049                     87.300            29.171
010       049                     87.300            29.104
011       049                     87.300            29.038
012       049                     87.300            28.971
013       049                     87.300            28.904
014       049                     87.300            28.838
015       049                     87.300            28.771
016       049                     87.300            28.704
017       049                     87.300            28.638
018       049                     87.300            28.571
019       049                     87.300            28.504
020       049                     87.300            28.438
021       049                     87.300            28.371
022       049                     87.300            28.304
023       049                     87.300            28.238
024       049                     87.300            28.171
025       049                     87.300            28.104
028       049                     87.300            27.904
030       049                     87.300            27.771
031       049                     87.300            27.704
032       049                     87.300            27.638
033       049                     87.300            27.571
034       049                     87.300            27.504
035       049                     87.300            27.438
036       049                     87.300            27.371
037       049                     87.300            27.304
038       049                     87.300            27.238
039       049                     87.300            27.171
040       049                     87.300            27.104
041       049                     87.300            27.038
042       049                     87.300            26.971
043       049                     87.300            26.904
044       049                     87.300            26.838
045       049                     87.300            26.771
046       049                     87.300            26.704
047       049                     87.300            26.638
007       050                     87.367            29.304
008       050                     87.367            29.238
009       050                     87.367            29.171
010       050                     87.367            29.104
011       050                     87.367            29.038
012       050                     87.367            28.971
013       050                     87.367            28.904
014       050                     87.367            28.838
015       050                     87.367            28.771
016       050                     87.367            28.704
017       050                     87.367            28.638
018       050                     87.367            28.571
019       050                     87.367            28.504
020       050                     87.367            28.438
021       050                     87.367            28.371
022       050                     87.367            28.304
023       050                     87.367            28.238
024       050                     87.367            28.171
025       050                     87.367            28.104
026       050                     87.367            28.038
027       050                     87.367            27.971
028       050                     87.367            27.904
029       050                     87.367            27.838
030       050                     87.367            27.771
031       050                     87.367            27.704
032       050                     87.367            27.638
033       050                     87.367            27.571
034       050                     87.367            27.504
035       050                     87.367            27.438
036       050                     87.367            27.371
037       050                     87.367            27.304
038       050                     87.367            27.238
039       050                     87.367            27.171
040       050                     87.367            27.104
041       050                     87.367            27.038
042       050                     87.367            26.971
043       050                     87.367            26.904
044       050                     87.367            26.838
045       050                     87.367            26.771
046       050                     87.367            26.704
047       050                     87.367            26.638
007       051                     87.433            29.304
008       051                     87.433            29.238
009       051                     87.433            29.171
010       051                     87.433            29.104
011       051                     87.433            29.038
012       051                     87.433            28.971
013       051                     87.433            28.904
014       051                     87.433            28.838
015       051                     87.433            28.771
016       051                     87.433            28.704
017       051                     87.433            28.638
018       051                     87.433            28.571
019       051                     87.433            28.504
020       051                     87.433            28.438
021       051                     87.433            28.371
022       051                     87.433            28.304
028       051                     87.433            27.904
029       051                     87.433            27.838
030       051                     87.433            27.771
031       051                     87.433            27.704
032       051                     87.433            27.638
033       051                     87.433            27.571
034       051                     87.433            27.504
035       051                     87.433            27.438
036       051                     87.433            27.371
037       051                     87.433            27.304
038       051                     87.433            27.238
039       051                     87.433            27.171
040       051                     87.433            27.104
041       051                     87.433            27.038
042       051                     87.433            26.971
043       051                     87.433            26.904
044       051                     87.433            26.838
045       051                     87.433            26.771
046       051                     87.433            26.704
047       051                     87.433            26.638
007       052                     87.500            29.304
008       052                     87.500            29.238
009       052                     87.500            29.171
010       052                     87.500            29.104
011       052                     87.500            29.038
012       052                     87.500            28.971
013       052                     87.500            28.904
014       052                     87.500            28.838
015       052                     87.500            28.771
016       052                     87.500            28.704
017       052                     87.500            28.638
018       052                     87.500            28.571
019       052                     87.500            28.504
020       052                     87.500            28.438
021       052                     87.500            28.371
022       052                     87.500            28.304
024       052                     87.500            28.171
027       052                     87.500            27.971
029       052                     87.500            27.838
030       052                     87.500            27.771
033       052                     87.500            27.571
034       052                     87.500            27.504
035       052                     87.500            27.438
036       052                     87.500            27.371
037       052                     87.500            27.304
038       052                     87.500            27.238
039       052                     87.500            27.171
040       052                     87.500            27.104
041       052                     87.500            27.038
042       052                     87.500            26.971
043       052                     87.500            26.904
044       052                     87.500            26.838
045       052                     87.500            26.771
046       052                     87.500            26.704
047       052                     87.500            26.638
007       053                     87.567            29.304
008       053                     87.567            29.238
009       053                     87.567            29.171
010       053                     87.567            29.104
011       053                     87.567            29.038
012       053                     87.567            28.971
013       053                     87.567            28.904
014       053                     87.567            28.838
015       053                     87.567            28.771
016       053                     87.567            28.704
017       053                     87.567            28.638
018       053                     87.567            28.571
019       053                     87.567            28.504
020       053                     87.567            28.438
021       053                     87.567            28.371
022       053                     87.567            28.304
024       053                     87.567            28.171
032       053                     87.567            27.638
033       053                     87.567            27.571
034       053                     87.567            27.504
035       053                     87.567            27.438
036       053                     87.567            27.371
037       053                     87.567            27.304
038       053                     87.567            27.238
039       053                     87.567            27.171
040       053                     87.567            27.104
041       053                     87.567            27.038
042       053                     87.567            26.971
007       054                     87.633            29.304
008       054                     87.633            29.238
009       054                     87.633            29.171
010       054                     87.633            29.104
011       054                     87.633            29.038
012       054                     87.633            28.971
013       054                     87.633            28.904
014       054                     87.633            28.838
015       054                     87.633            28.771
016       054                     87.633            28.704
017       054                     87.633            28.638
018       054                     87.633            28.571
019       054                     87.633            28.504
020       054                     87.633            28.438
021       054                     87.633            28.371
022       054                     87.633            28.304
023       054                     87.633            28.238
024       054                     87.633            28.171
025       054                     87.633            28.104
027       054                     87.633            27.971
032       054                     87.633            27.638
033       054                     87.633            27.571
034       054                     87.633            27.504
035       054                     87.633            27.438
036       054                     87.633            27.371
037       054                     87.633            27.304
007       055                     87.700            29.304
008       055                     87.700            29.238
009       055                     87.700            29.171
010       055                     87.700            29.104
011       055                     87.700            29.038
012       055                     87.700            28.971
013       055                     87.700            28.904
014       055                     87.700            28.838
015       055                     87.700            28.771
016       055                     87.700            28.704
017       055                     87.700            28.638
018       055                     87.700            28.571
019       055                     87.700            28.504
020       055                     87.700            28.438
021       055                     87.700            28.371
022       055                     87.700            28.304
023       055                     87.700            28.238
024       055                     87.700            28.171
025       055                     87.700            28.104
026       055                     87.700            28.038
027       055                     87.700            27.971
008       056                     87.767            29.238
009       056                     87.767            29.171
010       056                     87.767            29.104
011       056                     87.767            29.038
012       056                     87.767            28.971
013       056                     87.767            28.904
014       056                     87.767            28.838
015       056                     87.767            28.771
016       056                     87.767            28.704
017       056                     87.767            28.638
018       056                     87.767            28.571
019       056                     87.767            28.504
020       056                     87.767            28.438
021       056                     87.767            28.371
022       056                     87.767            28.304
023       056                     87.767            28.238
008       057                     87.833            29.238
009       057                     87.833            29.171
010       057                     87.833            29.104
011       057                     87.833            29.038
012       057                     87.833            28.971
013       057                     87.833            28.904
014       057                     87.833            28.838
015       057                     87.833            28.771
016       057                     87.833            28.704
017       057                     87.833            28.638
018       057                     87.833            28.571
019       057                     87.833            28.504
008       058                     87.900            29.238
009       058                     87.900            29.171
010       058                     87.900            29.104
011       058                     87.900            29.038
012       058                     87.900            28.971
013       058                     87.900            28.904
014       058                     87.900            28.838
008       059                     87.967            29.238
009       059                     87.967            29.171
010       059                     87.967            29.104
